File: V44/data/messung2.UXD
; E:\FP\messung2.raw(Diffrac Plus V1.01 file) converted by XCH V1.0
_FILEVERSION=2
_SITE='Deutschland'
_USER='Administrator'
_GONIOMETER_CODE=4885
; D8 Theta/Theta; Special
_SAMPLE_CHANGER_CODE=0
_ATTACHMENTS_CODE=0
_GONIOMETER_RADIUS=350
_FIXED_DIVSLIT=0.600000
_FIXED_SAMPLESLIT=0.000000
_FIXED_DETSLIT=11.66
_MONOCHROMATOR=0
; None
_THIN_FILM='N'
_BETA_FILTER='Y'
_FIXED_ANTISLIT=8.340000
_ANALYZER_CODE=0
; None
_DATEMEASURED='07-Nov-2022 12:42:13'
_WL_UNIT='A'
_WL1=1.540600
_WL2=1.544390
_WL3=1.392220
_WLRATIO=0.500000
_ANODE='Cu'
; (Data for Range number 1)
_DRIVE='THETA'
_STEPTIME=5.000660
_STEPSIZE=0.005000
_STEPMODE='C'
_START=0.000000
_THETA=0.000000
_2THETA=0.100000
_KHI=0.000000
_PHI=92.46
_X=0.000000
_Y=-1.000000
_Z=0.204000
_DIVERGENCE=0.000000
_ANTISCATTER=0.000000
_DETECTOR=5
_DETECTORSLIT='unkn'
_AUX1=0.000000
_AUX2=0.000000
_AUX3=0.000000
_TIMESTARTED=3.000000
_TEMP_RATE=-1.000000
_TEMP_DELAY=-1.000000
_KV=40
_MA=35
_RANGE_WL=1.540600
_3DPLANE=0
_GONIOMETER=0.097500
_PSDCHANNEL0=0
_2THETACOUNTS
   0.0000    417322
   0.0050    347963
   0.0100    287900
   0.0150    237525
   0.0200    192555
   0.0250    168871
   0.0300    148656
   0.0350    130483
   0.0400    119890
   0.0450    106901
   0.0500     96771
   0.0550     90296
   0.0600     84135
   0.0650     81386
   0.0700     80849
   0.0750     79635
   0.0800     77730
   0.0850     77073
   0.0900     76269
   0.0950     71898
   0.1000     68148
   0.1050     64398
   0.1100     60518
   0.1150     54611
   0.1200     48754
   0.1250     44329
   0.1300     40324
   0.1350     36963
   0.1400     32697
   0.1450     29440
   0.1500     26154
   0.1550     23128
   0.1600     21988
   0.1650     20163
   0.1700     19127
   0.1750     17871
   0.1800     16401
   0.1850     15219
   0.1900     14207
   0.1950     13257
   0.2000     11797
   0.2050     10513
   0.2100      8987
   0.2150      7322
   0.2200      6158
   0.2250      4807
   0.2300      3868
   0.2350      3085
   0.2400      2474
   0.2450      2058
   0.2500      1766
   0.2550      1577
   0.2600      1338
   0.2650      1085
   0.2700      1033
   0.2750       902
   0.2800       808
   0.2850       745
   0.2900       688
   0.2950       628
   0.3000       536
   0.3050       494
   0.3100       444
   0.3150       387
   0.3200       381
   0.3250       352
   0.3300       356
   0.3350       351
   0.3400       302
   0.3450       304
   0.3500       292
   0.3550       274
   0.3600       286
   0.3650       238
   0.3700       237
   0.3750       198
   0.3800       195
   0.3850       204
   0.3900       203
   0.3950       211
   0.4000       195
   0.4050       178
   0.4100       154
   0.4150       133
   0.4200       125
   0.4250       143
   0.4300       127
   0.4350       158
   0.4400       144
   0.4450       146
   0.4500       132
   0.4550       146
   0.4600       116
   0.4650       127
   0.4700       107
   0.4750        91
   0.4800       117
   0.4850        85
   0.4900        99
   0.4950       123
   0.5000        91
   0.5050        88
   0.5100        99
   0.5150        90
   0.5200        90
   0.5250        84
   0.5300        69
   0.5350        83
   0.5400        91
   0.5450        85
   0.5500        75
   0.5550        67
   0.5600        91
   0.5650        77
   0.5700        77
   0.5750        72
   0.5800        62
   0.5850        70
   0.5900        60
   0.5950        73
   0.6000        78
   0.6050        84
   0.6100        65
   0.6150        53
   0.6200        53
   0.6250        58
   0.6300        55
   0.6350        54
   0.6400        47
   0.6450        68
   0.6500        57
   0.6550        63
   0.6600        60
   0.6650        46
   0.6700        54
   0.6750        63
   0.6800        43
   0.6850        42
   0.6900        40
   0.6950        48
   0.7000        45
   0.7050        53
   0.7100        46
   0.7150        47
   0.7200        44
   0.7250        30
   0.7300        37
   0.7350        33
   0.7400        45
   0.7450        36
   0.7500        34
   0.7550        22
   0.7600        34
   0.7650        39
   0.7700        50
   0.7750        43
   0.7800        37
   0.7850        31
   0.7900        27
   0.7950        27
   0.8000        29
   0.8050        35
   0.8100        28
   0.8150        30
   0.8200        25
   0.8250        25
   0.8300        24
   0.8350        25
   0.8400        22
   0.8450        26
   0.8500        21
   0.8550        14
   0.8600        22
   0.8650        19
   0.8700        23
   0.8750        19
   0.8800        32
   0.8850        31
   0.8900        14
   0.8950        24
   0.9000        18
   0.9050        19
   0.9100        18
   0.9150        10
   0.9200        19
   0.9250        23
   0.9300        14
   0.9350        16
   0.9400         7
   0.9450        11
   0.9500        15
   0.9550         6
   0.9600        19
   0.9650        15
   0.9700        15
   0.9750        17
   0.9800        17
   0.9850        16
   0.9900        11
   0.9950        12
   1.0000        14
   1.0050         5
   1.0100         6
   1.0150        12
   1.0200         9
   1.0250        13
   1.0300         8
   1.0350        11
   1.0400         9
   1.0450         7
   1.0500        12
   1.0550         8
   1.0600         7
   1.0650         5
   1.0700         3
   1.0750         9
   1.0800         8
   1.0850        11
   1.0900         5
   1.0950         9
   1.1000         8
   1.1050         5
   1.1100         6
   1.1150         2
   1.1200         6
   1.1250         6
   1.1300         8
   1.1350         9
   1.1400         8
   1.1450        10
   1.1500         5
   1.1550         3
   1.1600         6
   1.1650         3
   1.1700         7
   1.1750         4
   1.1800         4
   1.1850         5
   1.1900        10
   1.1950         2
   1.2000         6
   1.2050         5
   1.2100         1
   1.2150         3
   1.2200         3
   1.2250         5
   1.2300         4
   1.2350         3
   1.2400         5
   1.2450         3
   1.2500         3
   1.2550         1
   1.2600         4
   1.2650         2
   1.2700         3
   1.2750         1
   1.2800         0
   1.2850         1
   1.2900         3
   1.2950         3
   1.3000         3
   1.3050         3
   1.3100         2
   1.3150         4
   1.3200         4
   1.3250         1
   1.3300         0
   1.3350         2
   1.3400         2
   1.3450         3
   1.3500         2
   1.3550         4
   1.3600         5
   1.3650         3
   1.3700         2
   1.3750         3
   1.3800         4
   1.3850         1
   1.3900         1
   1.3950         1
   1.4000         2
   1.4050         6
   1.4100         3
   1.4150         1
   1.4200         1
   1.4250         0
   1.4300         1
   1.4350         1
   1.4400         5
   1.4450         2
   1.4500         2
   1.4550         2
   1.4600         3
   1.4650         1
   1.4700         4
   1.4750         2
   1.4800         1
   1.4850         2
   1.4900         2
   1.4950         0
   1.5000         1
   1.5050         1
   1.5100         2
   1.5150         2
   1.5200         2
   1.5250         0
   1.5300         2
   1.5350         2
   1.5400         3
   1.5450         0
   1.5500         2
   1.5550         2
   1.5600         2
   1.5650         2
   1.5700         2
   1.5750         2
   1.5800         2
   1.5850         1
   1.5900         1
   1.5950         0
   1.6000         2
   1.6050         2
   1.6100         2
   1.6150         1
   1.6200         0
   1.6250         1
   1.6300         3
   1.6350         0
   1.6400         0
   1.6450         0
   1.6500         0
   1.6550         2
   1.6600         0
   1.6650         1
   1.6700         2
   1.6750         0
   1.6800         0
   1.6850         0
   1.6900         0
   1.6950         0
   1.7000         1
   1.7050         1
   1.7100         0
   1.7150         0
   1.7200         2
   1.7250         1
   1.7300         3
   1.7350         0
   1.7400         0
   1.7450         0
   1.7500         0
   1.7550         1
   1.7600         0
   1.7650         1
   1.7700         2
   1.7750         1
   1.7800         0
   1.7850         1
   1.7900         0
   1.7950         0
   1.8000         1
   1.8050         0
   1.8100         0
   1.8150         0
   1.8200         3
   1.8250         0
   1.8300         0
   1.8350         0
   1.8400         2
   1.8450         0
   1.8500         0
   1.8550         0
   1.8600         0
   1.8650         1
   1.8700         0
   1.8750         0
   1.8800         0
   1.8850         0
   1.8900         0
   1.8950         1
   1.9000         0
   1.9050         0
   1.9100         0
   1.9150         0
   1.9200         0
   1.9250         0
   1.9300         1
   1.9350         1
   1.9400         0
   1.9450         0
   1.9500         1
   1.9550         0
   1.9600         0
   1.9650         0
   1.9700         0
   1.9750         0
   1.9800         0
   1.9850         0
   1.9900         0
   1.9950         0
   2.0000         1
   2.0050         0
   2.0100         0
   2.0150         0
   2.0200         0
   2.0250         0
   2.0300         0
   2.0350         1
   2.0400         1
   2.0450         0
   2.0500         1
   2.0550         0
   2.0600         0
   2.0650         0
   2.0700         0
   2.0750         0
   2.0800         0
   2.0850         1
   2.0900         2
   2.0950         0
   2.1000         1
   2.1050         1
   2.1100         0
   2.1150         0
   2.1200         0
   2.1250         0
   2.1300         0
   2.1350         1
   2.1400         0
   2.1450         0
   2.1500         0
   2.1550         0
   2.1600         0
   2.1650         0
   2.1700         0
   2.1750         0
   2.1800         0
   2.1850         0
   2.1900         0
   2.1950         0
   2.2000         0
   2.2050         0
   2.2100         2
   2.2150         0
   2.2200         1
   2.2250         0
   2.2300         0
   2.2350         0
   2.2400         0
   2.2450         1
   2.2500         0
   2.2550         0
   2.2600         0
   2.2650         0
   2.2700         0
   2.2750         0
   2.2800         0
   2.2850         1
   2.2900         1
   2.2950         0
   2.3000         0
   2.3050         0
   2.3100         0
   2.3150         0
   2.3200         0
   2.3250         0
   2.3300         0
   2.3350         0
   2.3400         0
   2.3450         0
   2.3500         0
   2.3550         0
   2.3600         0
   2.3650         1
   2.3700         1
   2.3750         0
   2.3800         0
   2.3850         1
   2.3900         0
   2.3950         0
   2.4000         0
   2.4050         0
   2.4100         0
   2.4150         2
   2.4200         1
   2.4250         0
   2.4300         0
   2.4350         1
   2.4400         0
   2.4450         1
   2.4500         0
   2.4550         0
   2.4600         0
   2.4650         0
   2.4700         0
   2.4750         0
   2.4800         1
   2.4850         0
   2.4900         0
   2.4950         0
   2.5000         0