File: V44/data/messung1.UXD
; E:\FP\messung1.raw(Diffrac Plus V1.01 file) converted by XCH V1.0
_FILEVERSION=2
_SITE='Deutschland'
_USER='Administrator'
_GONIOMETER_CODE=4885
; D8 Theta/Theta; Special
_SAMPLE_CHANGER_CODE=0
_ATTACHMENTS_CODE=0
_GONIOMETER_RADIUS=350
_FIXED_DIVSLIT=0.600000
_FIXED_SAMPLESLIT=0.000000
_FIXED_DETSLIT=11.66
_MONOCHROMATOR=0
; None
_THIN_FILM='N'
_BETA_FILTER='Y'
_FIXED_ANTISLIT=8.340000
_ANALYZER_CODE=0
; None
_DATEMEASURED='07-Nov-2022 11:25:05'
_WL_UNIT='A'
_WL1=1.540600
_WL2=1.544390
_WL3=1.392220
_WLRATIO=0.500000
_ANODE='Cu'
; (Data for Range number 1)
_DRIVE='THETA'
_STEPTIME=5.000660
_STEPSIZE=0.005000
_STEPMODE='C'
_START=0.000000
_THETA=0.000000
_2THETA=0.000000
_KHI=0.000000
_PHI=92.46
_X=0.000000
_Y=-1.000000
_Z=0.204000
_DIVERGENCE=0.000000
_ANTISCATTER=0.000000
_DETECTOR=5
_DETECTORSLIT='unkn'
_AUX1=0.000000
_AUX2=0.000000
_AUX3=0.000000
_TIMESTARTED=2.000000
_TEMP_RATE=-1.000000
_TEMP_DELAY=-1.000000
_KV=40
_MA=35
_RANGE_WL=1.540600
_3DPLANE=0
_GONIOMETER=-0.002500
_PSDCHANNEL0=0
_2THETACOUNTS
   0.0000   1940630
   0.0050   2242290
   0.0100   2500710
   0.0150   2593110
   0.0200   2416070
   0.0250   2035970
   0.0300   1663700
   0.0350   1396120
   0.0400   1208490
   0.0450   1100590
   0.0500   1045870
   0.0550   1021540
   0.0600   1021440
   0.0650   1024720
   0.0700   1031270
   0.0750   1059820
   0.0800   1093690
   0.0850   1130460
   0.0900   1173790
   0.0950   1209930
   0.1000   1251730
   0.1050   1294830
   0.1100   1334640
   0.1150   1367780
   0.1200   1417000
   0.1250   1462390
   0.1300   1508760
   0.1350   1547150
   0.1400   1590830
   0.1450   1602940
   0.1500   1623230
   0.1550   1631480
   0.1600   1647170
   0.1650   1647200
   0.1700   1678710
   0.1750   1702750
   0.1800   1737780
   0.1850   1766530
   0.1900   1791390
   0.1950   1800350
   0.2000   1769160
   0.2050   1708910
   0.2100   1598700
   0.2150   1435220
   0.2200   1233450
   0.2250    994973
   0.2300    752009
   0.2350    566233
   0.2400    428242
   0.2450    317733
   0.2500    255108
   0.2550    221946
   0.2600    197460
   0.2650    173351
   0.2700    143799
   0.2750    114469
   0.2800     88032
   0.2850     71665
   0.2900     64308
   0.2950     64694
   0.3000     66168
   0.3050     65879
   0.3100     61443
   0.3150     53578
   0.3200     42706
   0.3250     33663
   0.3300     28072
   0.3350     26137
   0.3400     26893
   0.3450     28988
   0.3500     30417
   0.3550     30123
   0.3600     27524
   0.3650     23056
   0.3700     18708
   0.3750     14642
   0.3800     12754
   0.3850     12740
   0.3900     13603
   0.3950     15087
   0.4000     16024
   0.4050     16215
   0.4100     14019
   0.4150     11903
   0.4200      9541
   0.4250      7790
   0.4300      6736
   0.4350      6965
   0.4400      7619
   0.4450      8639
   0.4500      9131
   0.4550      8926
   0.4600      8246
   0.4650      6868
   0.4700      5593
   0.4750      4483
   0.4800      4064
   0.4850      3946
   0.4900      4496
   0.4950      4914
   0.5000      5574
   0.5050      5484
   0.5100      5162
   0.5150      4368
   0.5200      3558
   0.5250      2818
   0.5300      2521
   0.5350      2515
   0.5400      2786
   0.5450      2997
   0.5500      3403
   0.5550      3393
   0.5600      3289
   0.5650      2837
   0.5700      2359
   0.5750      2057
   0.5800      1618
   0.5850      1535
   0.5900      1793
   0.5950      1921
   0.6000      2232
   0.6050      2322
   0.6100      2254
   0.6150      1960
   0.6200      1741
   0.6250      1319
   0.6300      1145
   0.6350      1101
   0.6400      1051
   0.6450      1234
   0.6500      1325
   0.6550      1516
   0.6600      1499
   0.6650      1432
   0.6700      1227
   0.6750      1043
   0.6800       799
   0.6850       733
   0.6900       702
   0.6950       819
   0.7000       910
   0.7050       992
   0.7100      1033
   0.7150      1013
   0.7200       921
   0.7250       764
   0.7300       621
   0.7350       523
   0.7400       484
   0.7450       531
   0.7500       600
   0.7550       664
   0.7600       662
   0.7650       707
   0.7700       676
   0.7750       595
   0.7800       471
   0.7850       390
   0.7900       357
   0.7950       381
   0.8000       364
   0.8050       441
   0.8100       555
   0.8150       528
   0.8200       496
   0.8250       446
   0.8300       391
   0.8350       332
   0.8400       281
   0.8450       269
   0.8500       268
   0.8550       293
   0.8600       339
   0.8650       352
   0.8700       383
   0.8750       344
   0.8800       322
   0.8850       278
   0.8900       213
   0.8950       220
   0.9000       205
   0.9050       231
   0.9100       209
   0.9150       260
   0.9200       262
   0.9250       255
   0.9300       216
   0.9350       186
   0.9400       178
   0.9450       139
   0.9500       138
   0.9550       138
   0.9600       162
   0.9650       200
   0.9700       182
   0.9750       219
   0.9800       180
   0.9850       158
   0.9900       158
   0.9950       117
   1.0000        68
   1.0050       130
   1.0100       108
   1.0150       127
   1.0200       110
   1.0250       127
   1.0300       143
   1.0350       135
   1.0400       132
   1.0450        91
   1.0500        94
   1.0550        84
   1.0600        72
   1.0650        84
   1.0700        91
   1.0750        97
   1.0800       106
   1.0850       100
   1.0900       105
   1.0950        83
   1.1000        68
   1.1050        71
   1.1100        44
   1.1150        71
   1.1200        82
   1.1250        92
   1.1300        87
   1.1350        76
   1.1400        78
   1.1450        64
   1.1500        56
   1.1550        52
   1.1600        52
   1.1650        43
   1.1700        50
   1.1750        57
   1.1800        62
   1.1850        49
   1.1900        72
   1.1950        52
   1.2000        52
   1.2050        44
   1.2100        42
   1.2150        36
   1.2200        37
   1.2250        36
   1.2300        50
   1.2350        49
   1.2400        48
   1.2450        34
   1.2500        36
   1.2550        38
   1.2600        23
   1.2650        19
   1.2700        29
   1.2750        29
   1.2800        21
   1.2850        24
   1.2900        38
   1.2950        30
   1.3000        31
   1.3050        40
   1.3100        28
   1.3150        27
   1.3200        24
   1.3250        20
   1.3300        23
   1.3350        27
   1.3400        24
   1.3450        24
   1.3500        25
   1.3550        13
   1.3600        22
   1.3650        15
   1.3700        14
   1.3750        20
   1.3800        12
   1.3850        18
   1.3900        21
   1.3950        21
   1.4000        17
   1.4050        14
   1.4100        13
   1.4150        12
   1.4200        12
   1.4250        12
   1.4300         5
   1.4350        17
   1.4400        13
   1.4450        15
   1.4500        14
   1.4550        19
   1.4600        17
   1.4650        11
   1.4700        10
   1.4750        10
   1.4800        16
   1.4850        11
   1.4900        12
   1.4950        11
   1.5000        14
   1.5050        12
   1.5100        19
   1.5150        11
   1.5200         7
   1.5250        10
   1.5300         7
   1.5350         7
   1.5400        11
   1.5450         8
   1.5500        10
   1.5550        13
   1.5600         5
   1.5650        13
   1.5700         7
   1.5750         9
   1.5800         6
   1.5850         4
   1.5900         7
   1.5950         7
   1.6000         5
   1.6050         8
   1.6100         8
   1.6150         7
   1.6200         5
   1.6250         8
   1.6300         3
   1.6350         5
   1.6400         7
   1.6450         8
   1.6500         9
   1.6550         4
   1.6600         8
   1.6650         6
   1.6700         8
   1.6750         5
   1.6800        10
   1.6850         3
   1.6900         7
   1.6950         6
   1.7000        10
   1.7050         5
   1.7100         4
   1.7150         6
   1.7200         5
   1.7250         4
   1.7300         4
   1.7350         5
   1.7400         1
   1.7450         3
   1.7500         5
   1.7550         0
   1.7600         4
   1.7650         3
   1.7700         3
   1.7750         6
   1.7800         5
   1.7850         7
   1.7900         4
   1.7950         3
   1.8000         2
   1.8050         7
   1.8100         3
   1.8150         1
   1.8200         3
   1.8250         3
   1.8300         5
   1.8350         2
   1.8400         4
   1.8450         1
   1.8500         2
   1.8550         1
   1.8600         2
   1.8650         3
   1.8700         8
   1.8750         2
   1.8800         4
   1.8850         0
   1.8900         1
   1.8950         3
   1.9000         4
   1.9050         0
   1.9100         1
   1.9150         0
   1.9200         1
   1.9250         2
   1.9300         1
   1.9350         5
   1.9400         3
   1.9450         4
   1.9500         2
   1.9550         3
   1.9600         4
   1.9650         3
   1.9700         2
   1.9750         1
   1.9800         2
   1.9850         3
   1.9900         1
   1.9950         2
   2.0000         1
   2.0050         4
   2.0100         2
   2.0150         1
   2.0200         0
   2.0250         1
   2.0300         0
   2.0350         0
   2.0400         2
   2.0450         0
   2.0500         0
   2.0550         1
   2.0600         2
   2.0650         1
   2.0700         0
   2.0750         2
   2.0800         1
   2.0850         1
   2.0900         0
   2.0950         2
   2.1000         2
   2.1050         0
   2.1100         1
   2.1150         0
   2.1200         2
   2.1250         1
   2.1300         0
   2.1350         2
   2.1400         1
   2.1450         0
   2.1500         1
   2.1550         1
   2.1600         3
   2.1650         0
   2.1700         4
   2.1750         2
   2.1800         0
   2.1850         1
   2.1900         0
   2.1950         2
   2.2000         2
   2.2050         1
   2.2100         0
   2.2150         1
   2.2200         0
   2.2250         1
   2.2300         1
   2.2350         0
   2.2400         1
   2.2450         3
   2.2500         2
   2.2550         0
   2.2600         0
   2.2650         1
   2.2700         2
   2.2750         0
   2.2800         2
   2.2850         0
   2.2900         1
   2.2950         0
   2.3000         0
   2.3050         0
   2.3100         1
   2.3150         0
   2.3200         0
   2.3250         1
   2.3300         0
   2.3350         1
   2.3400         1
   2.3450         0
   2.3500         2
   2.3550         1
   2.3600         1
   2.3650         0
   2.3700         0
   2.3750         0
   2.3800         0
   2.3850         0
   2.3900         1
   2.3950         2
   2.4000         0
   2.4050         0
   2.4100         3
   2.4150         2
   2.4200         0
   2.4250         0
   2.4300         1
   2.4350         2
   2.4400         0
   2.4450         0
   2.4500         4
   2.4550         0
   2.4600         1
   2.4650         0
   2.4700         2
   2.4750         1
   2.4800         0
   2.4850         1
   2.4900         0
   2.4950         0
   2.5000         0